File: data/AuWire_100mVs_0_0.6V_AU.DTA
EXPLAIN
TAG	CV
TITLE	LABEL	CV 100 ppb As	Test &Identifier
DATE	LABEL	7/17/2018	Date
TIME	LABEL	17:47:56	Time
NOTES	NOTES	2	&Notes...
	After use. With stirring

PSTAT	PSTAT	REF600P-36072	Potentiostat
VINIT	POTEN	3.00000E-001	F	Initial &E (V)
VLIMIT1	POTEN	6.00000E-001	F	Scan Limit &1 (V)
VLIMIT2	POTEN	0.00000E+000	F	Scan Limit &2 (V)
VFINAL	POTEN	3.00000E-001	F	Final &E (V)
SCANRATE	QUANT	9.99998E+001	&Scan Rate (mV/s)
STEPSIZE	QUANT	2.00000E+000	St&ep Size (mV)
CYCLES	IQUANT	10	C&ycles (#)
IMODE	SELECTOR	0	I/E Range &Mode
IRANGE	QUANT	3.00000E-001	&Max Current (mA)
AREA	QUANT	1.00000E+000	Electrode &Area (cm^2)
ELECTRODETYPE	SELECTOR	0	Electrode Type
STRIPPING	TOGGLE	F	Used for Stripping
POLARITY	TOGGLE	F	Signal Polarity
CONDIT	TWOPARAM	F	1.50000E+001	0.00000E+000	Conditionin&g	Time(s)	E(V)
DELAY	TWOPARAM	F	3.00000E+001	0.00000E+000	Init. De&lay	Time(s)	Stab.(mV/s)
EQDELAY	QUANT	0.00000E+000	Equil. &Time (s)
IRCOMP	SELECTOR	0	IRCom&p
PFCOR	QUANT	5.00000E+001	PF Corr. (ohm)
SAMPLINGMODE	SELECTOR	1	Sampling &Mode
EOC	QUANT	0	Open Circuit (V)
PSTATMODEL	IQUANT	7	Pstat Model
PSTATSECTION	LABEL	REF600P-36072	Pstat Section
PSTATSERIALNO	LABEL	36072	Pstat Serial Number
CTRLMODE	IQUANT	1	Control Mode
ELECTROMETER	IQUANT	0	RE=0 or CS=1
IESTAB	IQUANT	2	I/E Stability
CASPEED	IQUANT	4	Control Amp Speed
CONVENTION	IQUANT	1	Current Convention
ICHRANGE	IQUANT	2	Ich Range
ICHRANGEMODE	TOGGLE	F	Ich Auto Range
ICHOFFSETENABLE	TOGGLE	F	Ich Offset Enable
ICHOFFSET	QUANT	0	Ich Offset (V)
ICHFILTER	IQUANT	2	Ich Filter
VCHRANGE	IQUANT	2	Vch Range
VCHRANGEMODE	TOGGLE	F	Vch Auto Range
VCHOFFSETENABLE	TOGGLE	F	Vch Offset Enable
VCHOFFSET	QUANT	0	Vch Offset (V)
VCHFILTER	IQUANT	2	Vch Filter
ACHRANGE	IQUANT	2	Ach Range
ACHOFFSETENABLE	TOGGLE	F	Ach Offset Enable
ACHOFFSET	QUANT	0	Ach Offset (V)
ACHFILTER	IQUANT	1	Ach Filter
IERANGELOWERLIMIT	IQUANT	1	I/E Range Lower Limit
IERANGEMODE	TOGGLE	T	I/E AutoRange
IERANGE	IQUANT	8	I/E Range
POSFEEDENABLE	TOGGLE	F	Positive Feedback IR Comp
POSFEEDRESISTANCE	QUANT	0	Positive Feedback Resistance (ohm)
ACHSELECT	IQUANT	0	Ach Select
SENSECABLEID	IQUANT	7	Sense Cable ID
PWRCABLEID	IQUANT	7	Power Cable ID
DCCALDATE	LABEL	4/16/2018	DC Calibration Date
ACCOLADE	LABEL	4/16/2018	AC Calibration Date
THERMOSELECT	IQUANT	1	Thermo Select
FRAMEWORK-VERSION	QUANT	7.06	Framework Version
INSTRUMENTVERSION	LABEL	4.30	Instrument Version
CURVE1	TABLE
	Pt	T	Vf	Im	Vu	Sig	Ach	IERange	Over	Temp
	#	s	V vs. Ref.	A	V	V	V	#	bits	deg C
	0	0.02	3.00294E-001	1.74613E-007	0.00000E+000	3.00000E-001	3.39255E-004	8	..........a	-327.62
	1	0.04	3.02268E-001	1.33899E-007	0.00000E+000	3.02000E-001	3.43422E-004	7	..........a	-327.62
	2	0.06	3.04271E-001	1.19431E-007	0.00000E+000	3.04000E-001	3.31755E-004	7	..........a	-327.62
	3	0.08	3.06348E-001	1.01670E-007	0.00000E+000	3.06000E-001	3.40922E-004	7	..........a	-327.62
	4	0.1	3.08263E-001	8.16505E-008	0.00000E+000	3.08000E-001	3.47589E-004	7	..........a	-327.62
	5	0.12	3.10307E-001	6.76070E-008	0.00000E+000	3.10000E-001	3.45922E-004	7	..........a	-327.62
	6	0.14	3.12248E-001	8.41092E-008	0.00000E+000	3.12000E-001	3.37589E-004	7	..........a	-327.62
	7	0.16	3.14294E-001	9.72693E-008	0.00000E+000	3.14000E-001	3.48422E-004	7	..........a	-327.62
	8	0.18	3.16257E-001	7.05740E-008	0.00000E+000	3.16000E-001	3.42589E-004	7	..........a	-327.62
	9	0.2	3.18312E-001	7.45579E-008	0.00000E+000	3.18000E-001	3.44255E-004	7	..........a	-327.62
	10	0.22	3.20283E-001	9.03601E-008	0.00000E+000	3.20000E-001	3.43422E-004	7	..........a	-327.62
	11	0.24	3.22348E-001	1.02387E-007	0.00000E+000	3.22000E-001	3.38422E-004	7	..........a	-327.62
	12	0.26	3.24265E-001	1.19347E-007	0.00000E+000	3.24000E-001	3.37589E-004	7	..........a	-327.62
	13	0.28	3.26315E-001	7.21409E-008	0.00000E+000	3.26000E-001	3.41755E-004	7	..........a	-327.62
	14	0.3	3.28266E-001	5.05046E-008	0.00000E+000	3.28000E-001	3.37589E-004	7	..........a	-327.62
	15	0.32	3.30320E-001	6.75820E-008	0.00000E+000	3.30000E-001	3.44255E-004	7	..........a	-327.62
	16	0.34	3.32295E-001	8.38092E-008	0.00000E+000	3.32000E-001	3.42589E-004	7	..........a	-327.62
	17	0.36	3.34371E-001	9.23853E-008	0.00000E+000	3.34000E-001	3.43422E-004	7	..........a	-327.62
	18	0.38	3.36251E-001	8.56428E-008	0.00000E+000	3.36000E-001	3.34255E-004	7	..........a	-327.62
	19	0.4	3.38277E-001	8.39592E-008	0.00000E+000	3.38000E-001	3.44255E-004	7	..........a	-327.62
	20	0.42	3.40248E-001	8.04587E-008	0.00000E+000	3.40000E-001	3.35089E-004	7	..........a	-327.62
	21	0.44	3.42373E-001	9.40522E-008	0.00000E+000	3.42000E-001	3.41755E-004	7	..........a	-327.62
	22	0.46	3.44226E-001	9.26520E-008	0.00000E+000	3.44000E-001	3.36755E-004	7	..........a	-327.62
	23	0.48	3.46285E-001	8.11505E-008	0.00000E+000	3.46000E-001	3.37589E-004	7	..........a	-327.62
	24	0.5	3.48378E-001	5.73472E-008	0.00000E+000	3.48000E-001	3.42589E-004	7	..........a	-327.62
	25	0.52	3.50332E-001	9.25520E-008	0.00000E+000	3.50000E-001	3.38422E-004	7	..........a	-327.62
	26	0.54	3.52195E-001	1.19856E-007	0.00000E+000	3.52000E-001	3.41755E-004	7	..........a	-327.62
	27	0.56	3.54289E-001	1.46834E-007	0.00000E+000	3.54000E-001	3.40089E-004	7	..........a	-327.62
	28	0.58	3.56303E-001	1.04487E-007	0.00000E+000	3.56000E-001	3.45922E-004	7	..........a	-327.62
	29	0.6	3.58305E-001	6.88071E-008	0.00000E+000	3.58000E-001	3.45922E-004	7	..........a	-327.62
	30	0.62	3.60242E-001	7.41245E-008	0.00000E+000	3.60000E-001	3.34255E-004	7	..........a	-327.62
	31	0.64	3.62292E-001	1.30207E-007	0.00000E+000	3.62000E-001	3.38422E-004	7	..........a	-327.62
	32	0.66	3.64240E-001	1.07329E-007	0.00000E+000	3.64000E-001	3.36755E-004	7	..........a	-327.62
	33	0.68	3.66342E-001	1.07387E-007	0.00000E+000	3.66000E-001	3.39255E-004	7	..........a	-327.62
	34	0.7	3.68243E-001	9.56525E-008	0.00000E+000	3.68000E-001	3.36755E-004	7	..........a	-327.62
	35	0.72	3.70278E-001	1.40809E-007	0.00000E+000	3.70000E-001	3.45922E-004	7	..........a	-327.62
	36	0.74	3.72288E-001	1.54252E-007	0.00000E+000	3.72000E-001	3.45089E-004	7	..........a	-327.62
	37	0.76	3.74228E-001	1.25365E-007	0.00000E+000	3.74000E-001	3.42589E-004	7	..........a	-327.62
	38	0.78	3.76134E-001	1.16180E-007	0.00000E+000	3.76000E-001	3.38422E-004	7	..........a	-327.62
	39	0.8	3.78301E-001	8.05671E-008	0.00000E+000	3.78000E-001	3.41755E-004	7	..........a	-327.62
	40	0.82	3.80289E-001	1.01912E-007	0.00000E+000	3.80000E-001	3.43422E-004	7	..........a	-327.62
	41	0.84	3.82322E-001	1.48210E-007	0.00000E+000	3.82000E-001	3.44255E-004	7	..........a	-327.62
	42	0.86	3.84240E-001	1.67262E-007	0.00000E+000	3.84000E-001	3.35922E-004	7	..........a	-327.62
	43	0.88	3.86236E-001	1.52244E-007	0.00000E+000	3.86000E-001	3.36755E-004	7	..........a	-327.62
	44	0.9	3.88245E-001	1.39533E-007	0.00000E+000	3.88000E-001	3.42589E-004	7	..........a	-327.62
	45	0.92	3.90268E-001	1.78122E-007	0.00000E+000	3.90000E-001	3.55089E-004	7	..........a	-327.62
	46	0.94	3.92240E-001	1.91657E-007	0.00000E+000	3.92000E-001	3.61755E-004	7	..........a	-327.62
	47	0.96	3.94280E-001	1.93666E-007	0.00000E+000	3.94000E-001	3.65089E-004	7	..........a	-327.62
	48	0.98	3.96233E-001	1.51585E-007	0.00000E+000	3.96000E-001	3.48422E-004	7	..........a	-327.62
	49	1	3.98361E-001	1.53269E-007	0.00000E+000	3.98000E-001	3.39255E-004	7	..........a	-327.62
	50	1.02	4.00216E-001	1.84198E-007	0.00000E+000	4.00000E-001	3.47589E-004	7	..........a	-327.62
	51	1.04	4.02255E-001	2.16161E-007	0.00000E+000	4.02000E-001	3.59255E-004	7	..........a	-327.62
	52	1.06	4.04247E-001	2.16244E-007	0.00000E+000	4.04000E-001	3.44255E-004	7	..........a	-327.62
	53	1.08	4.06236E-001	2.10501E-007	0.00000E+000	4.06000E-001	3.65089E-004	7	..........a	-327.62
	54	1.1	4.08267E-001	2.04517E-007	0.00000E+000	4.08000E-001	3.60922E-004	7	..........a	-327.62
	55	1.12	4.10256E-001	2.07168E-007	0.00000E+000	4.10000E-001	3.61755E-004	7	..........a	-327.62
	56	1.14	4.12215E-001	2.35505E-007	0.00000E+000	4.12000E-001	3.40922E-004	7	..........a	-327.62
	57	1.16	4.14245E-001	2.24870E-007	0.00000E+000	4.14000E-001	3.52589E-004	7	..........a	-327.62
	58	1.18	4.16205E-001	2.50549E-007	0.00000E+000	4.16000E-001	3.36755E-004	7	..........a	-327.62
	59	1.2	4.18245E-001	2.38105E-007	0.00000E+000	4.18000E-001	3.43422E-004	7	..........a	-327.62
	60	1.22	4.20186E-001	2.39880E-007	0.00000E+000	4.20000E-001	3.39255E-004	7	..........a	-327.62
	61	1.24	4.22299E-001	2.90987E-007	0.00000E+000	4.22000E-001	3.37589E-004	7	..........a	-327.62
	62	1.26	4.24220E-001	2.60167E-007	0.00000E+000	4.24000E-001	3.39255E-004	7	..........a	-327.62
	63	1.28	4.26320E-001	2.58875E-007	0.00000E+000	4.26000E-001	3.40089E-004	7	..........a	-327.62
	64	1.3	4.28251E-001	3.28676E-007	0.00000E+000	4.28000E-001	3.44255E-004	7	..........a	-327.62
	65	1.32	4.30300E-001	3.38877E-007	0.00000E+000	4.30000E-001	3.37589E-004	7	..........a	-327.62
	66	1.34	4.32218E-001	3.33410E-007	0.00000E+000	4.32000E-001	3.39255E-004	7	..........a	-327.62
	67	1.36	4.34265E-001	3.20425E-007	0.00000E+000	4.34000E-001	3.37589E-004	7	..........a	-327.62
	68	1.38	4.36204E-001	3.16116E-007	0.00000E+000	4.36000E-001	3.32589E-004	7	..........a	-327.62
	69	1.4	4.38253E-001	2.95455E-007	0.00000E+000	4.38000E-001	3.40089E-004	7	..........a	-327.62
	70	1.42	4.40193E-001	3.17033E-007	0.00000E+000	4.40000E-001	3.46755E-004	7	..........a	-327.62
	71	1.44	4.42263E-001	3.41703E-007	0.00000E+000	4.42000E-001	3.32589E-004	7	..........a	-327.62
	72	1.46	4.44212E-001	3.30885E-007	0.00000E+000	4.44000E-001	3.39255E-004	7	..........a	-327.62
	73	1.48	4.46261E-001	3.27842E-007	0.00000E+000	4.46000E-001	3.41755E-004	7	..........a	-327.62
	74	1.5	4.48265E-001	3.27467E-007	0.00000E+000	4.48000E-001	3.38422E-004	7	..........a	-327.62
	75	1.52	4.50312E-001	3.49737E-007	0.00000E+000	4.50000E-001	3.36755E-004	7	..........a	-327.62
	76	1.54	4.52175E-001	3.82225E-007	0.00000E+000	4.52000E-001	3.39255E-004	7	..........a	-327.62
	77	1.56	4.54254E-001	3.99052E-007	0.00000E+000	4.54000E-001	3.38422E-004	7	..........a	-327.62
	78	1.58	4.56190E-001	4.14113E-007	0.00000E+000	4.56000E-001	3.36755E-004	7	..........a	-327.62
	79	1.6	4.58281E-001	3.61614E-007	0.00000E+000	4.58000E-001	3.39255E-004	7	..........a	-327.62
	80	1.62	4.60211E-001	3.54613E-007	0.00000E+000	4.60000E-001	3.41755E-004	7	..........a	-327.62
	81	1.64	4.62248E-001	3.91043E-007	0.00000E+000	4.62000E-001	3.35922E-004	7	..........a	-327.62
	82	1.66	4.64208E-001	3.95543E-007	0.00000E+000	4.64000E-001	3.30089E-004	7	..........a	-327.62
	83	1.68	4.66268E-001	3.88142E-007	0.00000E+000	4.66000E-001	3.30922E-004	7	..........a	-327.62
	84	1.7	4.68181E-001	3.69006E-007	0.00000E+000	4.68000E-001	3.36755E-004	7	..........a	-327.62
	85	1.72	4.70233E-001	4.53301E-007	0.00000E+000	4.70000E-001	3.40922E-004	7	..........a	-327.62
	86	1.74	4.72158E-001	4.92832E-007	0.00000E+000	4.72000E-001	3.37589E-004	7	..........a	-327.62
	87	1.76	4.74275E-001	5.06750E-007	0.00000E+000	4.74000E-001	3.36755E-004	7	..........a	-327.62
	88	1.78	4.76217E-001	5.06558E-007	0.00000E+000	4.76000E-001	3.32589E-004	7	..........a	-327.62
	89	1.8	4.78255E-001	4.93007E-007	0.00000E+000	4.78000E-001	3.44255E-004	7	..........a	-327.62
	90	1.82	4.80179E-001	4.88089E-007	0.00000E+000	4.80000E-001	3.38422E-004	7	..........a	-327.62
	91	1.84	4.82261E-001	5.54282E-007	0.00000E+000	4.82000E-001	3.41755E-004	7	..........a	-327.62
	92	1.86	4.84205E-001	5.37846E-007	0.00000E+000	4.84000E-001	3.42589E-004	7	..........a	-327.62
	93	1.88	4.86263E-001	4.92032E-007	0.00000E+000	4.86000E-001	3.42589E-004	7	..........a	-327.62
	94	1.9	4.88154E-001	4.86581E-007	0.00000E+000	4.88000E-001	3.31755E-004	7	..........a	-327.62
	95	1.92	4.90252E-001	5.42963E-007	0.00000E+000	4.90000E-001	3.40089E-004	7	..........a	-327.62
	96	1.94	4.92183E-001	6.24216E-007	0.00000E+000	4.92000E-001	3.36755E-004	7	..........a	-327.62
	97	1.96	4.94240E-001	6.54354E-007	0.00000E+000	4.94000E-001	3.37589E-004	7	..........a	-327.62
	98	1.98	4.96173E-001	5.93312E-007	0.00000E+000	4.96000E-001	3.48422E-004	7	..........a	-327.62
	99	2	4.98230E-001	5.74726E-007	0.00000E+000	4.98000E-001	3.38422E-004	7	..........a	-327.62
	100	2.02	5.00235E-001	6.21207E-007	0.00000E+000	5.00000E-001	3.44255E-004	7	..........a	-327.62
	101	2.04	5.02368E-001	6.09864E-007	0.00000E+000	5.02000E-001	3.43422E-004	7	..........a	-327.62
	102	2.06	5.03888E-001	6.35668E-007	0.00000E+000	5.04000E-001	3.44255E-004	7	..........a	-327.62
	103	2.08	5.06245E-001	6.95709E-007	0.00000E+000	5.06000E-001	3.48422E-004	7	..........a	-327.62
	104	2.1	5.08187E-001	6.45511E-007	0.00000E+000	5.08000E-001	3.35922E-004	7	..........a	-327.62
	105	2.12	5.10166E-001	6.39818E-007	0.00000E+000	5.10000E-001	3.35089E-004	7	..........a	-327.62
	106	2.14	5.12194E-001	6.69639E-007	0.00000E+000	5.12000E-001	3.35922E-004	7	..........a	-327.62
	107	2.16	5.14209E-001	7.07277E-007	0.00000E+000	5.14000E-001	3.37589E-004	7	..........a	-327.62
	108	2.18	5.16175E-001	7.10228E-007	0.00000E+000	5.16000E-001	3.45922E-004	7	..........a	-327.62
	109	2.2	5.18219E-001	6.90667E-007	0.00000E+000	5.18000E-001	3.35922E-004	7	..........a	-327.62
	110	2.22	5.20168E-001	7.03552E-007	0.00000E+000	5.20000E-001	3.50089E-004	7	..........a	-327.62
	111	2.24	5.22183E-001	7.76879E-007	0.00000E+000	5.22000E-001	3.34255E-004	7	..........a	-327.62
	112	2.26	5.24143E-001	8.43904E-007	0.00000E+000	5.24000E-001	3.31755E-004	7	..........a	-327.62
	113	2.28	5.26162E-001	8.25152E-007	0.00000E+000	5.26000E-001	3.44255E-004	7	..........a	-327.62
	114	2.3	5.28013E-001	7.47241E-007	0.00000E+000	5.28000E-001	3.32589E-004	7	..........a	-327.62
	115	2.32	5.30256E-001	7.76854E-007	0.00000E+000	5.30000E-001	3.31755E-004	7	..........a	-327.62
	116	2.34	5.32161E-001	8.38245E-007	0.00000E+000	5.32000E-001	3.37589E-004	7	..........a	-327.62
	117	2.36	5.34241E-001	7.84546E-007	0.00000E+000	5.34000E-001	3.46755E-004	7	..........a	-327.62
	118	2.38	5.36167E-001	7.71820E-007	0.00000E+000	5.36000E-001	3.39255E-004	7	..........a	-327.62
	119	2.4	5.38241E-001	8.24010E-007	0.00000E+000	5.38000E-001	3.33422E-004	7	..........a	-327.62
	120	2.42	5.40185E-001	8.65299E-007	0.00000E+000	5.40000E-001	3.45089E-004	7	..........a	-327.62
	121	2.44	5.42228E-001	9.14897E-007	0.00000E+000	5.42000E-001	3.43422E-004	7	..........a	-327.62
	122	2.46	5.44175E-001	8.62540E-007	0.00000E+000	5.44000E-001	3.32589E-004	7	..........a	-327.62
	123	2.48	5.46190E-001	8.22343E-007	0.00000E+000	5.46000E-001	3.35089E-004	7	..........a	-327.62
	124	2.5	5.48160E-001	7.73895E-007	0.00000E+000	5.48000E-001	3.52589E-004	7	..........a	-327.62
	125	2.52	5.50271E-001	8.64399E-007	0.00000E+000	5.50000E-001	3.35922E-004	7	..........a	-327.62
	126	2.54	5.52108E-001	9.45351E-007	0.00000E+000	5.52000E-001	3.35089E-004	7	..........a	-327.62
	127	2.56	5.54283E-001	8.96145E-007	0.00000E+000	5.54000E-001	3.30089E-004	7	..........a	-327.62
	128	2.58	5.56153E-001	9.77331E-007	0.00000E+000	5.56000E-001	3.40089E-004	7	..........a	-327.62
	129	2.6	5.58250E-001	1.16971E-006	0.00000E+000	5.58000E-001	3.37589E-004	7	..........a	-327.62
	130	2.62	5.60107E-001	1.25433E-006	0.00000E+000	5.60000E-001	3.35922E-004	7	..........a	-327.62
	131	2.64	5.62213E-001	1.05605E-006	0.00000E+000	5.62000E-001	3.41755E-004	7	..........a	-327.62
	132	2.66	5.64158E-001	1.03375E-006	0.00000E+000	5.64000E-001	3.38422E-004	7	..........a	-327.62
	133	2.68	5.66209E-001	9.30383E-007	0.00000E+000	5.66000E-001	3.30089E-004	7	..........a	-327.62
	134	2.7	5.68146E-001	1.01184E-006	0.00000E+000	5.68000E-001	3.38422E-004	7	..........a	-327.62
	135	2.72	5.70158E-001	1.01192E-006	0.00000E+000	5.70000E-001	3.40922E-004	7	..........a	-327.62
	136	2.74	5.72126E-001	1.03943E-006	0.00000E+000	5.72000E-001	3.28422E-004	7	..........a	-327.62
	137	2.76	5.74129E-001	1.02875E-006	0.00000E+000	5.74000E-001	3.39255E-004	7	..........a	-327.62
	138	2.78	5.76195E-001	1.14257E-006	0.00000E+000	5.76000E-001	3.38422E-004	7	..........a	-327.62
	139	2.8	5.78249E-001	1.12013E-006	0.00000E+000	5.78000E-001	3.45089E-004	7	..........a	-327.62
	140	2.82	5.80136E-001	1.05991E-006	0.00000E+000	5.80000E-001	3.49255E-004	7	..........a	-327.62
	141	2.84	5.82239E-001	1.12233E-006	0.00000E+000	5.82000E-001	3.39255E-004	7	..........a	-327.62
	142	2.86	5.84169E-001	1.17033E-006	0.00000E+000	5.84000E-001	3.48422E-004	7	..........a	-327.62
	143	2.88	5.86214E-001	1.16461E-006	0.00000E+000	5.86000E-001	3.37589E-004	7	..........a	-327.62
	144	2.9	5.88161E-001	1.02470E-006	0.00000E+000	5.88000E-001	3.40922E-004	7	..........a	-327.62
	145	2.92	5.90216E-001	1.04289E-006	0.00000E+000	5.90000E-001	3.39255E-004	7	..........a	-327.62
	146	2.94	5.92148E-001	1.20810E-006	0.00000E+000	5.92000E-001	3.48422E-004	7	..........a	-327.62
	147	2.96	5.94177E-001	1.18722E-006	0.00000E+000	5.94000E-001	3.44255E-004	7	..........a	-327.62
	148	2.98	5.96152E-001	1.19896E-006	0.00000E+000	5.96000E-001	3.45922E-004	7	..........a	-327.62
	149	3	5.98207E-001	1.09503E-006	0.00000E+000	5.98000E-001	3.36755E-004	7	..........a	-327.62
	150	3.02	6.00147E-001	1.10442E-006	0.00000E+000	6.00000E-001	3.38422E-004	7	..........a	-327.62
	151	3.04	5.98177E-001	1.05422E-006	0.00000E+000	5.98000E-001	3.31755E-004	7	..........a	-327.62
	152	3.06	5.96127E-001	9.00795E-007	0.00000E+000	5.96000E-001	3.35089E-004	7	..........a	-327.62
	153	3.08	5.94187E-001	8.16276E-007	0.00000E+000	5.94000E-001	3.40922E-004	7	..........a	-327.62
	154	3.1	5.92122E-001	7.51792E-007	0.00000E+000	5.92000E-001	3.48422E-004	7	..........a	-327.62
	155	3.12	5.90218E-001	7.08203E-007	0.00000E+000	5.90000E-001	3.46755E-004	7	..........a	-327.62
	156	3.14	5.88166E-001	6.67155E-007	0.00000E+000	5.88000E-001	3.45089E-004	7	..........a	-327.62
	157	3.16	5.86193E-001	6.01121E-007	0.00000E+000	5.86000E-001	3.46755E-004	7	..........a	-327.62
	158	3.18	5.84138E-001	5.65358E-007	0.00000E+000	5.84000E-001	3.37589E-004	7	..........a	-327.62
	159	3.2	5.82243E-001	5.07575E-007	0.00000E+000	5.82000E-001	3.43422E-004	7	..........a	-327.62
	160	3.22	5.80138E-001	4.98949E-007	0.00000E+000	5.80000E-001	3.34255E-004	7	..........a	-327.62
	161	3.24	5.78256E-001	4.65153E-007	0.00000E+000	5.78000E-001	3.39255E-004	7	..........a	-327.62
	162	3.26	5.76186E-001	4.10770E-007	0.00000E+000	5.76000E-001	3.40922E-004	7	..........a	-327.62
	163	3.28	5.74150E-001	3.84542E-007	0.00000E+000	5.74000E-001	3.34255E-004	7	..........a	-327.62
	164	3.3	5.72116E-001	3.66339E-007	0.00000E+000	5.72000E-001	3.39255E-004	7	..........a	-327.62
	165	3.32	5.70181E-001	3.44128E-007	0.00000E+000	5.70000E-001	3.35089E-004	7	..........a	-327.62
	166	3.34	5.68150E-001	3.24967E-007	0.00000E+000	5.68000E-001	3.37589E-004	7	..........a	-327.62
	167	3.36	5.66337E-001	2.93579E-007	0.00000E+000	5.66000E-001	3.41755E-004	7	..........a	-327.62
	168	3.38	5.64172E-001	2.68243E-007	0.00000E+000	5.64000E-001	3.50089E-004	7	..........a	-327.62
	169	3.4	5.62201E-001	2.13468E-007	0.00000E+000	5.62000E-001	3.65089E-004	7	..........a	-327.62
	170	3.42	5.60145E-001	2.18619E-007	0.00000E+000	5.60000E-001	3.45922E-004	7	..........a	-327.62
	171	3.44	5.58195E-001	2.13760E-007	0.00000E+000	5.58000E-001	3.39255E-004	7	..........a	-327.62
	172	3.46	5.56162E-001	1.98691E-007	0.00000E+000	5.56000E-001	3.47589E-004	7	..........a	-327.62
	173	3.48	5.54250E-001	1.96716E-007	0.00000E+000	5.54000E-001	3.48422E-004	7	..........a	-327.62
	174	3.5	5.52070E-001	1.38267E-007	0.00000E+000	5.52000E-001	3.39255E-004	7	..........a	-327.62
	175	3.52	5.50221E-001	1.05929E-007	0.00000E+000	5.50000E-001	3.35922E-004	7	..........a	-327.62
	176	3.54	5.48145E-001	1.63037E-007	0.00000E+000	5.48000E-001	3.35922E-004	7	..........a	-327.62
	177	3.56	5.46206E-001	1.57836E-007	0.00000E+000	5.46000E-001	3.46755E-004	7	..........a	-327.62
	178	3.58	5.44196E-001	1.64037E-007	0.00000E+000	5.44000E-001	3.41755E-004	7	..........a	-327.62
	179	3.6	5.42287E-001	1.04529E-007	0.00000E+000	5.42000E-001	3.50922E-004	7	..........a	-327.62
	180	3.62	5.40179E-001	8.24757E-008	0.00000E+000	5.40000E-001	3.36755E-004	7	..........a	-327.62
	181	3.64	5.38235E-001	1.02295E-007	0.00000E+000	5.38000E-001	3.40089E-004	7	..........a	-327.62
	182	3.66	5.36188E-001	1.01503E-007	0.00000E+000	5.36000E-001	3.40089E-004	7	..........a	-327.62
	183	3.68	5.34257E-001	6.60317E-008	0.00000E+000	5.34000E-001	3.43422E-004	7	..........a	-327.62
	184	3.7	5.32155E-001	5.49552E-008	0.00000E+000	5.32000E-001	3.46755E-004	7	..........a	-327.62
	185	3.72	5.30243E-001	2.87433E-008	0.00000E+000	5.30000E-001	3.40089E-004	7	..........a	-327.62
	186	3.74	5.28111E-001	5.20882E-008	0.00000E+000	5.28000E-001	3.40089E-004	7	..........a	-327.62
	187	3.76	5.26357E-001	3.91364E-008	0.00000E+000	5.26000E-001	3.38422E-004	7	..........a	-327.62
	188	3.78	5.24163E-001	4.01115E-008	0.00000E+000	5.24000E-001	3.38422E-004	7	..........a	-327.62
	189	3.8	5.22180E-001	5.89497E-010	0.00000E+000	5.22000E-001	3.22589E-004	7	..........a	-327.62
	190	3.82	5.20148E-001	2.39010E-008	0.00000E+000	5.20000E-001	3.34255E-004	7	..........a	-327.62
	191	3.84	5.18300E-001	3.92531E-008	0.00000E+000	5.18000E-001	3.38422E-004	7	..........a	-327.62
	192	3.86	5.16187E-001	3.07436E-008	0.00000E+000	5.16000E-001	3.38422E-004	7	..........a	-327.62
	193	3.88	5.14236E-001	2.50095E-008	0.00000E+000	5.14000E-001	3.35922E-004	7	..........a	-327.62
	194	3.9	5.12125E-001	-2.16552E-008	0.00000E+000	5.12000E-001	3.02589E-004	7	..........a	-327.62
	195	3.92	5.10215E-001	-2.87978E-008	0.00000E+000	5.10000E-001	3.09255E-004	7	..........a	-327.62
	196	3.94	5.08188E-001	1.49915E-008	0.00000E+000	5.08000E-001	3.28422E-004	7	..........a	-327.62
	197	3.96	5.06263E-001	-1.50245E-009	0.00000E+000	5.06000E-001	3.27589E-004	7	..........a	-327.62
	198	3.98	5.04164E-001	-2.74429E-009	0.00000E+000	5.04000E-001	3.21755E-004	7	..........a	-327.62
	199	4	5.02168E-001	-1.25456E-008	0.00000E+000	5.02000E-001	3.00922E-004	7	..........a	-327.62
	200	4.02	5.00171E-001	-1.16205E-008	0.00000E+000	5.00000E-001	3.20922E-004	7	..........a	-327.62
	201	4.04	4.98183E-001	-1.22373E-008	0.00000E+000	4.98000E-001	3.01755E-004	7	..........a	-327.62
	202	4.06	4.96149E-001	-2.32888E-008	0.00000E+000	4.96000E-001	2.98422E-004	7	..........a	-327.62
	203	4.08	4.94212E-001	-4.68170E-008	0.00000E+000	4.94000E-001	2.96755E-004	7	..........a	-327.62
	204	4.1	4.92154E-001	-7.04452E-008	0.00000E+000	4.92000E-001	2.98422E-004	7	..........a	-327.62
	205	4.12	4.90236E-001	-3.71573E-008	0.00000E+000	4.90000E-001	2.89255E-004	7	..........a	-327.62
	206	4.14	4.88151E-001	-1.72129E-008	0.00000E+000	4.88000E-001	3.08422E-004	7	..........a	-327.62
	207	4.16	4.86215E-001	-5.91972E-009	0.00000E+000	4.86000E-001	3.16755E-004	7	..........a	-327.62
	208	4.18	4.84159E-001	-1.58711E-008	0.00000E+000	4.84000E-001	3.15089E-004	7	..........a	-327.62
	209	4.2	4.82217E-001	-4.49834E-008	0.00000E+000	4.82000E-001	2.96755E-004	7	..........a	-327.62
	210	4.22	4.80136E-001	-6.23024E-008	0.00000E+000	4.80000E-001	2.97589E-004	7	..........a	-327.62
	211	4.24	4.78200E-001	-3.13732E-008	0.00000E+000	4.78000E-001	2.97589E-004	7	..........a	-327.62
	212	4.26	4.76150E-001	-4.77421E-008	0.00000E+000	4.76000E-001	2.92589E-004	7	..........a	-327.62
	213	4.28	4.74272E-001	-3.96160E-008	0.00000E+000	4.74000E-001	2.98422E-004	7	..........a	-327.62
	214	4.3	4.72142E-001	-6.10189E-008	0.00000E+000	4.72000E-001	2.91755E-004	7	..........a	-327.62
	215	4.32	4.70185E-001	-5.01758E-008	0.00000E+000	4.70000E-001	2.85922E-004	7	..........a	-327.62
	216	4.34	4.68135E-001	-3.71990E-008	0.00000E+000	4.68000E-001	2.80922E-004	7	..........a	-327.62
	217	4.36	4.66187E-001	-4.41416E-008	0.00000E+000	4.66000E-001	3.00089E-004	7	..........a	-327.62
	218	4.38	4.64152E-001	-5.11759E-008	0.00000E+000	4.64000E-001	2.89255E-004	7	..........a	-327.62
	219	4.4	4.62181E-001	-7.62543E-008	0.00000E+000	4.62000E-001	2.96755E-004	7	..........a	-327.62
	220	4.42	4.60186E-001	-8.95144E-008	0.00000E+000	4.60000E-001	2.97589E-004	7	..........a	-327.62
	221	4.44	4.58235E-001	-4.01494E-008	0.00000E+000	4.58000E-001	3.04255E-004	7	..........a	-327.62
	222	4.46	4.56178E-001	-6.43194E-008	0.00000E+000	4.56000E-001	3.01755E-004	7	..........a	-327.62
	223	4.48	4.54194E-001	-6.76948E-008	0.00000E+000	4.54000E-001	2.89255E-004	7	..........a	-327.62
	224	4.5	4.52175E-001	-7.88047E-008	0.00000E+000	4.52000E-001	3.04255E-004	7	..........a	-327.62
	225	4.52	4.50237E-001	-6.10606E-008	0.00000E+000	4.50000E-001	2.91755E-004	7	..........a	-327.62
	226	4.54	4.48205E-001	-3.87659E-008	0.00000E+000	4.48000E-001	2.90089E-004	7	..........a	-327.62
	227	4.56	4.46166E-001	-6.05022E-008	0.00000E+000	4.46000E-001	2.93422E-004	7	..........a	-327.62
	228	4.58	4.44156E-001	-8.03715E-008	0.00000E+000	4.44000E-001	2.89255E-004	7	..........a	-327.62
	229	4.6	4.42253E-001	-1.12009E-007	0.00000E+000	4.42000E-001	2.94255E-004	7	..........a	-327.62
	230	4.62	4.40165E-001	-8.21468E-008	0.00000E+000	4.40000E-001	2.95922E-004	7	..........a	-327.62
	231	4.64	4.38231E-001	-4.07078E-008	0.00000E+000	4.38000E-001	3.02589E-004	7	..........a	-327.62
	232	4.66	4.36160E-001	-6.63363E-008	0.00000E+000	4.36000E-001	2.80922E-004	7	..........a	-327.62
	233	4.68	4.34221E-001	-9.02312E-008	0.00000E+000	4.34000E-001	2.91755E-004	7	..........a	-327.62
	234	4.7	4.32190E-001	-1.02583E-007	0.00000E+000	4.32000E-001	3.02589E-004	7	..........a	-327.62
	235	4.72	4.30222E-001	-7.70961E-008	0.00000E+000	4.30000E-001	2.89255E-004	7	..........a	-327.62
	236	4.74	4.28179E-001	-5.76518E-008	0.00000E+000	4.28000E-001	2.93422E-004	7	..........a	-327.62
	237	4.76	4.26295E-001	-9.42234E-008	0.00000E+000	4.26000E-001	3.05922E-004	7	..........a	-327.62
	238	4.78	4.24179E-001	-9.48235E-008	0.00000E+000	4.24000E-001	3.01755E-004	7	..........a	-327.62
	239	4.8	4.22213E-001	-1.22352E-007	0.00000E+000	4.22000E-001	2.94255E-004	7	..........a	-327.62
	240	4.82	4.20147E-001	-1.00424E-007	0.00000E+000	4.20000E-001	2.94255E-004	7	..........a	-327.62
	241	4.84	4.18233E-001	-7.77712E-008	0.00000E+000	4.18000E-001	3.00922E-004	7	..........a	-327.62
	242	4.86	4.16148E-001	-5.38012E-008	0.00000E+000	4.16000E-001	2.85089E-004	7	..........a	-327.62
	243	4.88	4.14198E-001	-8.48471E-008	0.00000E+000	4.14000E-001	2.95089E-004	7	..........a	-327.62
	244	4.9	4.12185E-001	-1.12868E-007	0.00000E+000	4.12000E-001	2.97589E-004	7	..........a	-327.62
	245	4.92	4.10270E-001	-1.08842E-007	0.00000E+000	4.10000E-001	3.02589E-004	7	..........a	-327.62
	246	4.94	4.08188E-001	-9.76739E-008	0.00000E+000	4.08000E-001	2.90089E-004	7	..........a	-327.62
	247	4.96	4.06305E-001	-9.55403E-008	0.00000E+000	4.06000E-001	3.04255E-004	7	..........a	-327.62
	248	4.98	4.04194E-001	-9.96075E-008	0.00000E+000	4.04000E-001	2.92589E-004	7	..........a	-327.62
	249	5	4.02292E-001	-1.02241E-007	0.00000E+000	4.02000E-001	2.90089E-004	7	..........a	-327.62
	250	5.02	4.00167E-001	-9.02896E-008	0.00000E+000	4.00000E-001	2.95922E-004	7	..........a	-327.62
	251	5.04	3.98186E-001	-7.75212E-008	0.00000E+000	3.98000E-001	3.00089E-004	7	..........a	-327.62
	252	5.06	3.96169E-001	-8.60473E-008	0.00000E+000	3.96000E-001	3.04255E-004	7	..........a	-327.62
	253	5.08	3.94269E-001	-1.13334E-007	0.00000E+000	3.94000E-001	2.92589E-004	7	..........a	-327.62
	254	5.1	3.92185E-001	-1.43030E-007	0.00000E+000	3.92000E-001	2.92589E-004	7	..........a	-327.62
	255	5.12	3.90234E-001	-1.12743E-007	0.00000E+000	3.90000E-001	2.99255E-004	7	..........a	-327.62
	256	5.14	3.88165E-001	-8.30219E-008	0.00000E+000	3.88000E-001	2.95089E-004	7	..........a	-327.62
	257	5.16	3.86258E-001	-1.06208E-007	0.00000E+000	3.86000E-001	2.95089E-004	7	..........a	-327.62
	258	5.18	3.84180E-001	-1.00749E-007	0.00000E+000	3.84000E-001	2.97589E-004	7	..........a	-327.62
	259	5.2	3.82270E-001	-1.00258E-007	0.00000E+000	3.82000E-001	2.93422E-004	7	..........a	-327.62
	260	5.22	3.80172E-001	-9.87824E-008	0.00000E+000	3.80000E-001	2.94255E-004	7	..........a	-327.62
	261	5.24	3.78289E-001	-8.37137E-008	0.00000E+000	3.78000E-001	3.08422E-004	7	..........a	-327.62
	262	5.26	3.76211E-001	-8.86227E-008	0.00000E+000	3.76000E-001	2.90922E-004	7	..........a	-327.62
	263	5.28	3.74144E-001	-1.27795E-007	0.00000E+000	3.74000E-001	2.93422E-004	7	..........a	-327.62
	264	5.3	3.72212E-001	-1.23886E-007	0.00000E+000	3.72000E-001	2.97589E-004	7	..........a	-327.62
	265	5.32	3.70264E-001	-1.15160E-007	0.00000E+000	3.70000E-001	2.95922E-004	7	..........a	-327.62
	266	5.34	3.68175E-001	-9.28649E-008	0.00000E+000	3.68000E-001	2.91755E-004	7	..........a	-327.62
	267	5.36	3.66293E-001	-9.02562E-008	0.00000E+000	3.66000E-001	3.00922E-004	7	..........a	-327.62
	268	5.38	3.64185E-001	-1.02450E-007	0.00000E+000	3.64000E-001	2.90089E-004	7	..........a	-327.62
	269	5.4	3.62287E-001	-1.38571E-007	0.00000E+000	3.62000E-001	2.91755E-004	7	..........a	-327.62
	270	5.42	3.60188E-001	-1.26511E-007	0.00000E+000	3.60000E-001	3.00922E-004	7	..........a	-327.62
	271	5.44	3.58248E-001	-1.13143E-007	0.00000E+000	3.58000E-001	2.90089E-004	7	..........a	-327.62
	272	5.46	3.56222E-001	-8.71225E-008	0.00000E+000	3.56000E-001	2.90922E-004	7	..........a	-327.62
	273	5.48	3.54258E-001	-1.14159E-007	0.00000E+000	3.54000E-001	2.95922E-004	7	..........a	-327.62
	274	5.5	3.52221E-001	-1.63466E-007	0.00000E+000	3.52000E-001	2.98422E-004	7	..........a	-327.62
	275	5.52	3.50156E-001	-1.19552E-007	0.00000E+000	3.50000E-001	3.02589E-004	7	..........a	-327.62
	276	5.54	3.48241E-001	-9.37067E-008	0.00000E+000	3.48000E-001	2.99255E-004	7	..........a	-327.62
	277	5.56	3.46305E-001	-1.22552E-007	0.00000E+000	3.46000E-001	2.86755E-004	7	..........a	-327.62
	278	5.58	3.44207E-001	-1.17627E-007	0.00000E+000	3.44000E-001	2.97589E-004	7	..........a	-327.62
	279	5.6	3.42200E-001	-1.40955E-007	0.00000E+000	3.42000E-001	2.95922E-004	7	..........a	-327.62
	280	5.62	3.40205E-001	-1.43630E-007	0.00000E+000	3.40000E-001	2.97589E-004	7	..........a	-327.62
	281	5.64	3.38254E-001	-1.11192E-007	0.00000E+000	3.38000E-001	2.97589E-004	7	..........a	-327.62
	282	5.66	3.36211E-001	-8.87643E-008	0.00000E+000	3.36000E-001	2.96755E-004	7	..........a	-327.62
	283	5.68	3.34290E-001	-1.13451E-007	0.00000E+000	3.34000E-001	3.05089E-004	7	..........a	-327.62
	284	5.7	3.32235E-001	-1.32437E-007	0.00000E+000	3.32000E-001	2.99255E-004	7	..........a	-327.62
	285	5.72	3.30293E-001	-1.27845E-007	0.00000E+000	3.30000E-001	3.03422E-004	7	..........a	-327.62
	286	5.74	3.28238E-001	-1.16827E-007	0.00000E+000	3.28000E-001	3.15922E-004	7	..........a	-327.62
	287	5.76	3.26182E-001	-1.32120E-007	0.00000E+000	3.26000E-001	2.90089E-004	7	..........a	-327.62
	288	5.78	3.24258E-001	-1.64716E-007	0.00000E+000	3.24000E-001	2.94255E-004	7	..........a	-327.62
	289	5.8	3.22319E-001	-1.72326E-007	0.00000E+000	3.22000E-001	3.00089E-004	7	..........a	-327.62
	290	5.82	3.20260E-001	-1.42555E-007	0.00000E+000	3.20000E-001	2.95922E-004	7	..........a	-327.62
	291	5.84	3.18221E-001	-1.16560E-007	0.00000E+000	3.18000E-001	2.95922E-004	7	..........a	-327.62
	292	5.86	3.16193E-001	-8.90977E-008	0.00000E+000	3.16000E-001	2.92589E-004	7	..........a	-327.62
	293	5.88	3.14303E-001	-1.25061E-007	0.00000E+000	3.14000E-001	2.93422E-004	7	..........a	-327.62
	294	5.9	3.12211E-001	-1.55932E-007	0.00000E+000	3.12000E-001	3.00922E-004	7	..........a	-327.62
	295	5.92	3.10253E-001	-1.42888E-007	0.00000E+000	3.10000E-001	3.01755E-004	7	..........a	-327.62
	296	5.94	3.08220E-001	-1.32729E-007	0.00000E+000	3.08000E-001	2.90922E-004	7	..........a	-327.62
	297	5.96	3.06304E-001	-1.39238E-007	0.00000E+000	3.06000E-001	3.05922E-004	7	..........a	-327.62
	298	5.98	3.04221E-001	-1.42163E-007	0.00000E+000	3.04000E-001	3.01755E-004	7	..........a	-327.62
	299	6	3.02310E-001	-1.68117E-007	0.00000E+000	3.02000E-001	3.03422E-004	7	..........a	-327.62
	300	6.02	3.00242E-001	-1.24611E-007	0.00000E+000	3.00000E-001	2.78422E-004	7	..........a	-327.62
	301	6.04	2.98325E-001	-1.15493E-007	0.00000E+000	2.98000E-001	2.90922E-004	7	..........a	-327.62
	302	6.06	2.96270E-001	-1.23561E-007	0.00000E+000	2.96000E-001	2.99255E-004	7	..........a	-327.62
	303	6.08	2.94375E-001	-1.53690E-007	0.00000E+000	2.94000E-001	3.01755E-004	7	..........a	-327.62
	304	6.1	2.92252E-001	-1.89736E-007	0.00000E+000	2.92000E-001	3.16755E-004	7	..........a	-327.62
	305	6.12	2.90277E-001	-1.53373E-007	0.00000E+000	2.90000E-001	2.94255E-004	7	..........a	-327.62
	306	6.14	2.88228E-001	-1.18202E-007	0.00000E+000	2.88000E-001	2.85089E-004	7	..........a	-327.62
	307	6.16	2.86271E-001	-1.21285E-007	0.00000E+000	2.86000E-001	2.91755E-004	7	..........a	-327.62
	308	6.18	2.84249E-001	-1.23719E-007	0.00000E+000	2.84000E-001	2.92589E-004	7	..........a	-327.62
	309	6.2	2.82320E-001	-1.41113E-007	0.00000E+000	2.82000E-001	3.00089E-004	7	..........a	-327.62
	310	6.22	2.80260E-001	-1.53156E-007	0.00000E+000	2.80000E-001	3.00089E-004	7	..........a	-327.62
	311	6.24	2.78290E-001	-1.28995E-007	0.00000E+000	2.78000E-001	3.00922E-004	7	..........a	-327.62
	312	6.26	2.76326E-001	-1.49523E-007	0.00000E+000	2.76000E-001	2.96755E-004	7	..........a	-327.62
	313	6.28	2.74335E-001	-1.42622E-007	0.00000E+000	2.74000E-001	3.05922E-004	7	..........a	-327.62
	314	6.3	2.72293E-001	-1.67842E-007	0.00000E+000	2.72000E-001	3.00089E-004	7	..........a	-327.62
	315	6.32	2.70306E-001	-2.05772E-007	0.00000E+000	2.70000E-001	2.94255E-004	7	..........a	-327.62
	316	6.34	2.68228E-001	-1.29028E-007	0.00000E+000	2.68000E-001	2.90922E-004	7	..........a	-327.62
	317	6.36	2.66303E-001	-1.30037E-007	0.00000E+000	2.66000E-001	2.86755E-004	7	..........a	-327.62
	318	6.38	2.64263E-001	-1.46214E-007	0.00000E+000	2.64000E-001	2.90922E-004	7	..........a	-327.62
	319	6.4	2.62338E-001	-1.83877E-007	0.00000E+000	2.62000E-001	3.02589E-004	7	..........a	-327.62
	320	6.42	2.60273E-001	-1.66217E-007	0.00000E+000	2.60000E-001	2.99255E-004	7	..........a	-327.62
	321	6.44	2.58293E-001	-1.29812E-007	0.00000E+000	2.58000E-001	2.98422E-004	7	..........a	-327.62
	322	6.46	2.56240E-001	-1.41972E-007	0.00000E+000	2.56000E-001	3.04255E-004	7	..........a	-327.62
	323	6.48	2.54265E-001	-1.40330E-007	0.00000E+000	2.54000E-001	3.00922E-004	7	..........a	-327.62
	324	6.5	2.52355E-001	-1.97404E-007	0.00000E+000	2.52000E-001	3.04255E-004	7	..........a	-327.62
	325	6.52	2.50338E-001	-1.52448E-007	0.00000E+000	2.50000E-001	2.99255E-004	7	..........a	-327.62
	326	6.54	2.48263E-001	-1.27153E-007	0.00000E+000	2.48000E-001	2.92589E-004	7	..........a	-327.62
	327	6.56	2.46297E-001	-1.16385E-007	0.00000E+000	2.46000E-001	2.97589E-004	7	..........a	-327.62
	328	6.58	2.44358E-001	-1.61458E-007	0.00000E+000	2.44000E-001	2.95089E-004	7	..........a	-327.62
	329	6.6	2.42307E-001	-1.75626E-007	0.00000E+000	2.42000E-001	3.00089E-004	7	..........a	-327.62
	330	6.62	2.40267E-001	-1.81285E-007	0.00000E+000	2.40000E-001	2.99255E-004	7	..........a	-327.62
	331	6.64	2.38268E-001	-1.40913E-007	0.00000E+000	2.38000E-001	2.88422E-004	7	..........a	-327.62
	332	6.66	2.36286E-001	-1.50189E-007	0.00000E+000	2.36000E-001	2.80089E-004	7	..........a	-327.62
	333	6.68	2.34298E-001	-1.42913E-007	0.00000E+000	2.34000E-001	3.03422E-004	7	..........a	-327.62
	334	6.7	2.32287E-001	-1.61541E-007	0.00000E+000	2.32000E-001	2.92589E-004	7	..........a	-327.62
	335	6.72	2.30330E-001	-1.79210E-007	0.00000E+000	2.30000E-001	3.05922E-004	7	..........a	-327.62
	336	6.74	2.28327E-001	-1.87061E-007	0.00000E+000	2.28000E-001	2.95089E-004	7	..........a	-327.62
	337	6.76	2.26313E-001	-1.72017E-007	0.00000E+000	2.26000E-001	2.94255E-004	7	..........a	-327.62
	338	6.78	2.24335E-001	-1.73193E-007	0.00000E+000	2.24000E-001	2.88422E-004	7	..........a	-327.62
	339	6.8	2.22341E-001	-1.66758E-007	0.00000E+000	2.22000E-001	2.92589E-004	7	..........a	-327.62
	340	6.82	2.20380E-001	-1.64350E-007	0.00000E+000	2.20000E-001	3.05922E-004	7	..........a	-327.62
	341	6.84	2.18311E-001	-1.49089E-007	0.00000E+000	2.18000E-001	3.00922E-004	7	..........a	-327.62
	342	6.86	2.16254E-001	-1.21377E-007	0.00000E+000	2.16000E-001	3.04255E-004	7	..........a	-327.62
	343	6.88	2.14303E-001	-1.61824E-007	0.00000E+000	2.14000E-001	2.94255E-004	7	..........a	-327.62
	344	6.9	2.12280E-001	-1.81960E-007	0.00000E+000	2.12000E-001	3.02589E-004	7	..........a	-327.62
	345	6.92	2.10316E-001	-2.07956E-007	0.00000E+000	2.10000E-001	3.04255E-004	7	..........a	-327.62
	346	6.94	2.08290E-001	-1.71001E-007	0.00000E+000	2.08000E-001	3.02589E-004	7	..........a	-327.62
	347	6.96	2.06353E-001	-1.59316E-007	0.00000E+000	2.06000E-001	2.89255E-004	7	..........a	-327.62
	348	6.98	2.04318E-001	-1.51523E-007	0.00000E+000	2.04000E-001	3.09255E-004	7	..........a	-327.62
	349	7	2.02315E-001	-1.92678E-007	0.00000E+000	2.02000E-001	3.02589E-004	7	..........a	-327.62
	350	7.02	2.00284E-001	-1.61599E-007	0.00000E+000	2.00000E-001	3.03422E-004	7	..........a	-327.62
	351	7.04	1.98272E-001	-1.47214E-007	0.00000E+000	1.98000E-001	3.04255E-004	7	..........a	-327.62
	352	7.06	1.96294E-001	-1.79460E-007	0.00000E+000	1.96000E-001	2.98422E-004	7	..........a	-327.62
	353	7.08	1.94379E-001	-1.95562E-007	0.00000E+000	1.94000E-001	3.00922E-004	7	..........a	-327.62
	354	7.1	1.92336E-001	-2.24666E-007	0.00000E+000	1.92000E-001	3.08422E-004	7	..........a	-327.62
	355	7.12	1.90297E-001	-1.80460E-007	0.00000E+000	1.90000E-001	2.93422E-004	7	..........a	-327.62
	356	7.14	1.88234E-001	-1.67175E-007	0.00000E+000	1.88000E-001	2.94255E-004	7	..........a	-327.62
	357	7.16	1.86308E-001	-1.75493E-007	0.00000E+000	1.86000E-001	3.04255E-004	7	..........a	-327.62
	358	7.18	1.84269E-001	-1.61774E-007	0.00000E+000	1.84000E-001	2.94255E-004	7	..........a	-327.62
	359	7.2	1.82338E-001	-2.03697E-007	0.00000E+000	1.82000E-001	3.03422E-004	7	..........a	-327.62
	360	7.22	1.80358E-001	-1.93945E-007	0.00000E+000	1.80000E-001	3.03422E-004	7	..........a	-327.62
	361	7.24	1.78345E-001	-1.70584E-007	0.00000E+000	1.78000E-001	3.01755E-004	7	..........a	-327.62
	362	7.26	1.76305E-001	-1.92503E-007	0.00000E+000	1.76000E-001	3.01755E-004	7	..........a	-327.62
	363	7.28	1.74339E-001	-1.73868E-007	0.00000E+000	1.74000E-001	3.01755E-004	7	..........a	-327.62
	364	7.3	1.72323E-001	-2.00346E-007	0.00000E+000	1.72000E-001	2.95922E-004	7	..........a	-327.62
	365	7.32	1.70344E-001	-1.90645E-007	0.00000E+000	1.70000E-001	2.99255E-004	7	..........a	-327.62
	366	7.34	1.68310E-001	-1.43772E-007	0.00000E+000	1.68000E-001	2.90922E-004	7	..........a	-327.62
	367	7.36	1.66430E-001	-1.58482E-007	0.00000E+000	1.66000E-001	2.97589E-004	7	..........a	-327.62
	368	7.38	1.64269E-001	-1.73443E-007	0.00000E+000	1.64000E-001	2.99255E-004	7	..........a	-327.62
	369	7.4	1.62330E-001	-2.12231E-007	0.00000E+000	1.62000E-001	3.02589E-004	7	..........a	-327.62
	370	7.42	1.60289E-001	-1.96062E-007	0.00000E+000	1.60000E-001	2.97589E-004	7	..........a	-327.62
	371	7.44	1.58310E-001	-1.52715E-007	0.00000E+000	1.58000E-001	2.94255E-004	7	..........a	-327.62
	372	7.46	1.56305E-001	-1.75935E-007	0.00000E+000	1.56000E-001	2.98422E-004	7	..........a	-327.62
	373	7.48	1.54345E-001	-1.87453E-007	0.00000E+000	1.54000E-001	2.99255E-004	7	..........a	-327.62
	374	7.5	1.52346E-001	-2.60088E-007	0.00000E+000	1.52000E-001	3.10922E-004	7	..........a	-327.62
	375	7.52	1.50345E-001	-2.27408E-007	0.00000E+000	1.50000E-001	2.96755E-004	7	..........a	-327.62
	376	7.54	1.48355E-001	-1.73718E-007	0.00000E+000	1.48000E-001	3.01755E-004	7	..........a	-327.62
	377	7.56	1.46363E-001	-1.64958E-007	0.00000E+000	1.46000E-001	2.90922E-004	7	..........a	-327.62
	378	7.58	1.44388E-001	-1.92128E-007	0.00000E+000	1.44000E-001	2.97589E-004	7	..........a	-327.62
	379	7.6	1.42305E-001	-2.33201E-007	0.00000E+000	1.42000E-001	3.09255E-004	7	..........a	-327.62
	380	7.62	1.40303E-001	-1.97746E-007	0.00000E+000	1.40000E-001	2.96755E-004	7	..........a	-327.62
	381	7.64	1.38325E-001	-1.49331E-007	0.00000E+000	1.38000E-001	2.96755E-004	7	..........a	-327.62
	382	7.66	1.36295E-001	-1.62641E-007	0.00000E+000	1.36000E-001	2.97589E-004	7	..........a	-327.62
	383	7.68	1.34345E-001	-1.86469E-007	0.00000E+000	1.34000E-001	2.91755E-004	7	..........a	-327.62
	384	7.7	1.32333E-001	-2.22024E-007	0.00000E+000	1.32000E-001	3.01755E-004	7	..........a	-327.62
	385	7.72	1.30348E-001	-1.99346E-007	0.00000E+000	1.30000E-001	2.99255E-004	7	..........a	-327.62
	386	7.74	1.28325E-001	-1.76776E-007	0.00000E+000	1.28000E-001	3.10089E-004	7	..........a	-327.62
[...]
	5757	115.16	1.86310E-001	-1.40263E-007	0.00000E+000	1.86000E-001	3.12589E-004	7	..........a	-327.62
	5759	115.2	1.82308E-001	-1.60416E-007	0.00000E+000	1.82000E-001	3.08422E-004	7	..........a	-327.62
	5761	115.24	1.78335E-001	-1.32604E-007	0.00000E+000	1.78000E-001	2.90922E-004	7	..........a	-327.62
	5763	115.28	1.74317E-001	-1.87153E-007	0.00000E+000	1.74000E-001	3.03422E-004	7	..........a	-327.62
	5765	115.32	1.70350E-001	-1.52881E-007	0.00000E+000	1.70000E-001	3.12589E-004	7	..........a	-327.62
	5767	115.36	1.66438E-001	-1.59282E-007	0.00000E+000	1.66000E-001	3.05089E-004	7	..........a	-327.62
	5769	115.4	1.62311E-001	-1.77318E-007	0.00000E+000	1.62000E-001	2.97589E-004	7	..........a	-327.62
	5771	115.44	1.58343E-001	-1.59241E-007	0.00000E+000	1.58000E-001	2.91755E-004	7	..........a	-327.62
	5773	115.48	1.54333E-001	-1.82652E-007	0.00000E+000	1.54000E-001	3.11755E-004	7	..........a	-327.62
	5775	115.52	1.50305E-001	-1.16368E-007	0.00000E+000	1.50000E-001	3.00922E-004	7	..........a	-327.62
	5777	115.56	1.46377E-001	-1.55507E-007	0.00000E+000	1.46000E-001	3.00922E-004	7	..........a	-327.62
	5779	115.6	1.42283E-001	-1.97671E-007	0.00000E+000	1.42000E-001	2.94255E-004	7	..........a	-327.62
	5781	115.64	1.38331E-001	-1.60933E-007	0.00000E+000	1.38000E-001	3.03422E-004	7	..........a	-327.62
	5783	115.68	1.34328E-001	-1.89153E-007	0.00000E+000	1.34000E-001	3.04255E-004	7	..........a	-327.62
	5785	115.72	1.30316E-001	-1.58074E-007	0.00000E+000	1.30000E-001	3.15089E-004	7	..........a	-327.62
	5787	115.76	1.26363E-001	-1.74768E-007	0.00000E+000	1.26000E-001	3.10089E-004	7	..........a	-327.62
	5789	115.8	1.22377E-001	-1.74493E-007	0.00000E+000	1.22000E-001	3.08422E-004	7	..........a	-327.62
	5791	115.84	1.18361E-001	-1.54907E-007	0.00000E+000	1.18000E-001	3.05922E-004	7	..........a	-327.62
	5793	115.88	1.14320E-001	-1.89753E-007	0.00000E+000	1.14000E-001	3.03422E-004	7	..........a	-327.62
	5795	115.92	1.10320E-001	-1.76760E-007	0.00000E+000	1.10000E-001	3.04255E-004	7	..........a	-327.62
	5797	115.96	1.06345E-001	-1.64158E-007	0.00000E+000	1.06000E-001	3.12589E-004	7	..........a	-327.62
	5799	116	1.02349E-001	-1.84477E-007	0.00000E+000	1.02000E-001	3.08422E-004	7	..........a	-327.62
	5801	116.04	9.83671E-002	-1.27095E-007	0.00000E+000	9.80000E-002	3.07589E-004	7	..........a	-327.62
	5803	116.08	9.43100E-002	-2.12081E-007	0.00000E+000	9.40000E-002	3.00089E-004	7	..........a	-327.62
	5805	116.12	9.04255E-002	-2.06914E-007	0.00000E+000	9.00000E-002	3.17589E-004	7	..........a	-327.62
	5807	116.16	8.63542E-002	-1.58732E-007	0.00000E+000	8.60000E-002	3.08422E-004	7	..........a	-327.62
	5809	116.2	8.23638E-002	-1.83894E-007	0.00000E+000	8.20000E-002	2.94255E-004	7	..........a	-327.62
	5811	116.24	7.83300E-002	-2.11814E-007	0.00000E+000	7.80000E-002	3.04255E-004	7	..........a	-327.62
	5813	116.28	7.43842E-002	-2.55562E-007	0.00000E+000	7.40000E-002	3.25922E-004	7	..........a	-327.62
	5815	116.32	7.04217E-002	-1.73859E-007	0.00000E+000	7.00000E-002	3.01755E-004	7	..........a	-327.62
	5817	116.36	6.64063E-002	-1.52298E-007	0.00000E+000	6.60000E-002	2.96755E-004	7	..........a	-327.62
	5819	116.4	6.23517E-002	-2.17774E-007	0.00000E+000	6.20000E-002	3.09255E-004	7	..........a	-327.62
	5821	116.44	5.83513E-002	-1.89336E-007	0.00000E+000	5.80000E-002	2.97589E-004	7	..........a	-327.62
	5823	116.48	5.44355E-002	-2.22333E-007	0.00000E+000	5.40000E-002	3.07589E-004	7	..........a	-327.62
	5825	116.52	5.03721E-002	-1.82269E-007	0.00000E+000	5.00000E-002	3.07589E-004	7	..........a	-327.62
	5827	116.56	4.64238E-002	-1.78102E-007	0.00000E+000	4.60000E-002	3.13422E-004	7	..........a	-327.62
	5829	116.6	4.24271E-002	-2.59471E-007	0.00000E+000	4.20000E-002	3.35922E-004	7	..........a	-327.62
	5831	116.64	3.85459E-002	-1.84627E-007	0.00000E+000	3.80000E-002	2.97589E-004	7	..........a	-327.62
	5833	116.68	3.43775E-002	-2.02555E-007	0.00000E+000	3.40000E-002	2.95089E-004	7	..........a	-327.62
	5835	116.72	3.04230E-002	-1.80585E-007	0.00000E+000	3.00000E-002	3.05089E-004	7	..........a	-327.62
	5837	116.76	2.64188E-002	-2.05839E-007	0.00000E+000	2.60000E-002	2.97589E-004	7	..........a	-327.62
	5839	116.8	2.22917E-002	-2.66572E-007	0.00000E+000	2.20000E-002	3.09255E-004	7	..........a	-327.62
	5841	116.84	1.83996E-002	-2.01288E-007	0.00000E+000	1.80000E-002	3.00922E-004	7	..........a	-327.62
	5843	116.88	1.43784E-002	-2.24841E-007	0.00000E+000	1.40000E-002	3.15922E-004	7	..........a	-327.62
	5845	116.92	1.03600E-002	-1.73176E-007	0.00000E+000	1.00000E-002	2.95089E-004	7	..........a	-327.62
	5847	116.96	6.37421E-003	-1.82002E-007	0.00000E+000	6.00001E-003	2.92589E-004	7	..........a	-327.62
	5849	117	2.38921E-003	-2.17457E-007	0.00000E+000	2.00003E-003	3.08422E-004	7	..........a	-327.62
	5850	117.02	3.60046E-004	-1.73168E-007	0.00000E+000	2.98023E-008	2.91755E-004	7	..........a	-327.62
CURVE11	TABLE
	Pt	T	Vf	Im	Vu	Sig	Ach	IERange	Over	Temp
	#	s	V vs. Ref.	A	V	V	V	#	bits	deg C
	5851	117.04	2.38380E-003	-1.37138E-007	0.00000E+000	2.00003E-003	2.95922E-004	7	..........a	-327.62
	5852	117.06	4.36505E-003	-1.25286E-007	0.00000E+000	4.00001E-003	3.00089E-004	7	..........a	-327.62
	5853	117.08	6.35505E-003	-1.46339E-007	0.00000E+000	6.00001E-003	3.05922E-004	7	..........a	-327.62
	5854	117.1	8.34046E-003	-1.10617E-007	0.00000E+000	8.00002E-003	3.03422E-004	7	..........a	-327.62
	5855	117.12	1.03413E-002	-7.89964E-008	0.00000E+000	1.00000E-002	2.98422E-004	7	..........a	-327.62
	5856	117.14	1.23121E-002	-4.76004E-008	0.00000E+000	1.20000E-002	3.06755E-004	7	..........a	-327.62
	5857	117.16	1.42388E-002	-8.84476E-008	0.00000E+000	1.40000E-002	2.97589E-004	7	..........a	-327.62
	5858	117.18	1.64421E-002	-8.63223E-008	0.00000E+000	1.60000E-002	3.10922E-004	7	..........a	-327.62
	5859	117.2	1.83900E-002	-2.89645E-008	0.00000E+000	1.80000E-002	3.09255E-004	7	..........a	-327.62
	5860	117.22	2.05321E-002	-4.35643E-010	0.00000E+000	2.00000E-002	3.23422E-004	7	..........a	-327.62
	5861	117.24	2.25075E-002	2.24341E-008	0.00000E+000	2.20000E-002	3.39255E-004	7	..........a	-327.62
	5862	117.26	2.44134E-002	-2.83394E-008	0.00000E+000	2.40000E-002	2.97589E-004	7	..........a	-327.62
	5863	117.28	2.64142E-002	-3.38569E-008	0.00000E+000	2.60000E-002	3.05922E-004	7	..........a	-327.62
	5864	117.3	2.84500E-002	-3.73907E-008	0.00000E+000	2.80000E-002	3.18422E-004	7	..........a	-327.62
	5865	117.32	3.04609E-002	1.57666E-008	0.00000E+000	3.00000E-002	3.47589E-004	7	..........a	-327.62
	5866	117.34	3.24130E-002	3.32773E-008	0.00000E+000	3.20000E-002	3.45089E-004	7	..........a	-327.62
	5867	117.36	3.44309E-002	3.00935E-008	0.00000E+000	3.40000E-002	3.40089E-004	7	..........a	-327.62
	5868	117.38	3.63800E-002	-9.51188E-009	0.00000E+000	3.60000E-002	3.15089E-004	7	..........a	-327.62
	5869	117.4	3.85605E-002	1.46497E-008	0.00000E+000	3.80000E-002	3.42589E-004	7	..........a	-327.62
	5870	117.42	4.04942E-002	4.81126E-008	0.00000E+000	4.00000E-002	3.28422E-004	7	..........a	-327.62
	5871	117.44	4.24430E-002	3.32856E-008	0.00000E+000	4.20000E-002	3.41755E-004	7	..........a	-327.62
	5872	117.46	4.45950E-002	2.78682E-008	0.00000E+000	4.40000E-002	3.40922E-004	7	..........a	-327.62
	5873	117.48	4.63792E-002	2.50642E-009	0.00000E+000	4.60000E-002	3.28422E-004	7	..........a	-327.62
	5874	117.5	4.84396E-002	1.61583E-008	0.00000E+000	4.80000E-002	3.30922E-004	7	..........a	-327.62
	5875	117.52	5.04338E-002	7.97670E-008	0.00000E+000	5.00000E-002	3.45089E-004	7	..........a	-327.62
	5876	117.54	5.24313E-002	6.64901E-008	0.00000E+000	5.20000E-002	3.43422E-004	7	..........a	-327.62
	5877	117.56	5.44567E-002	6.25146E-008	0.00000E+000	5.40000E-002	3.53422E-004	7	..........a	-327.62
	5878	117.58	5.63688E-002	1.75335E-008	0.00000E+000	5.60000E-002	3.31755E-004	7	..........a	-327.62
	5879	117.6	5.83934E-002	3.11937E-008	0.00000E+000	5.80000E-002	3.42589E-004	7	..........a	-327.62
	5880	117.62	6.03830E-002	4.86377E-008	0.00000E+000	6.00000E-002	3.43422E-004	7	..........a	-327.62
	5881	117.64	6.23900E-002	6.58984E-008	0.00000E+000	6.20000E-002	3.37589E-004	7	..........a	-327.62
	5882	117.66	6.44738E-002	7.54330E-008	0.00000E+000	6.40000E-002	3.35922E-004	7	..........a	-327.62
	5883	117.68	6.64538E-002	6.66652E-008	0.00000E+000	6.60000E-002	3.44255E-004	7	..........a	-327.62
	5884	117.7	6.84192E-002	6.13311E-008	0.00000E+000	6.80000E-002	3.40089E-004	7	..........a	-327.62
	5885	117.72	7.04705E-002	7.46163E-008	0.00000E+000	7.00000E-002	3.44255E-004	7	..........a	-327.62
	5886	117.74	7.24309E-002	7.80417E-008	0.00000E+000	7.20000E-002	3.45089E-004	7	..........a	-327.62
	5887	117.76	7.44171E-002	5.48386E-008	0.00000E+000	7.40000E-002	3.38422E-004	7	..........a	-327.62
	5888	117.78	7.64713E-002	2.64514E-008	0.00000E+000	7.60000E-002	3.34255E-004	7	..........a	-327.62
	5889	117.8	7.84400E-002	2.90850E-008	0.00000E+000	7.80000E-002	3.45089E-004	7	..........a	-327.62
	5890	117.82	8.03917E-002	8.36675E-008	0.00000E+000	8.00000E-002	3.41755E-004	7	..........a	-327.62
	5891	117.84	8.24105E-002	2.68931E-008	0.00000E+000	8.20000E-002	3.36755E-004	7	..........a	-327.62
	5892	117.86	8.43917E-002	9.26771E-008	0.00000E+000	8.40000E-002	3.38422E-004	7	..........a	-327.62
	5893	117.88	8.64167E-002	5.05296E-008	0.00000E+000	8.60000E-002	3.37589E-004	7	..........a	-327.62
	5894	117.9	8.83417E-002	3.79946E-008	0.00000E+000	8.80000E-002	3.52589E-004	7	..........a	-327.62
	5895	117.92	9.04459E-002	7.15992E-008	0.00000E+000	9.00000E-002	3.40922E-004	7	..........a	-327.62
	5896	117.94	9.24371E-002	8.05337E-008	0.00000E+000	9.20000E-002	3.50089E-004	7	..........a	-327.62
	5897	117.96	9.43921E-002	7.75333E-008	0.00000E+000	9.40000E-002	3.39255E-004	7	..........a	-327.62
	5898	117.98	9.64325E-002	5.00629E-008	0.00000E+000	9.60000E-002	3.42589E-004	7	..........a	-327.62
	5899	118	9.84380E-002	8.95683E-008	0.00000E+000	9.80000E-002	3.50089E-004	7	..........a	-327.62
	5900	118.02	1.00494E-001	1.00561E-007	0.00000E+000	1.00000E-001	3.54255E-004	7	..........a	-327.62
	5901	118.04	1.02433E-001	9.52607E-008	0.00000E+000	1.02000E-001	3.43422E-004	7	..........a	-327.62
	5902	118.06	1.04350E-001	9.35855E-008	0.00000E+000	1.04000E-001	3.55089E-004	7	..........a	-327.62
	5903	118.08	1.06398E-001	6.25479E-008	0.00000E+000	1.06000E-001	3.45089E-004	7	..........a	-327.62
	5904	118.1	1.08385E-001	3.05936E-008	0.00000E+000	1.08000E-001	3.45922E-004	7	..........a	-327.62
	5905	118.12	1.10388E-001	8.49760E-008	0.00000E+000	1.10000E-001	3.37589E-004	7	..........a	-327.62
	5906	118.14	1.12306E-001	1.18256E-007	0.00000E+000	1.12000E-001	3.43422E-004	7	..........a	-327.62
	5907	118.16	1.14337E-001	1.20514E-007	0.00000E+000	1.14000E-001	3.44255E-004	7	..........a	-327.62
	5908	118.18	1.16580E-001	9.48773E-008	0.00000E+000	1.16000E-001	3.40922E-004	7	..........a	-327.62
	5909	118.2	1.18398E-001	8.84931E-008	0.00000E+000	1.18000E-001	3.40922E-004	7	..........a	-327.62
	5910	118.22	1.20360E-001	1.12138E-007	0.00000E+000	1.20000E-001	3.44255E-004	7	..........a	-327.62
	5911	118.24	1.22398E-001	1.01278E-007	0.00000E+000	1.22000E-001	3.60089E-004	7	..........a	-327.62
	5912	118.26	1.24455E-001	9.64859E-008	0.00000E+000	1.24000E-001	3.34255E-004	7	..........a	-327.62
	5913	118.28	1.26383E-001	6.71069E-008	0.00000E+000	1.26000E-001	3.39255E-004	7	..........a	-327.62
	5914	118.3	1.28368E-001	7.84001E-008	0.00000E+000	1.28000E-001	3.39255E-004	7	..........a	-327.62
	5915	118.32	1.30324E-001	1.11421E-007	0.00000E+000	1.30000E-001	3.40922E-004	7	..........a	-327.62
	5916	118.34	1.32355E-001	1.21556E-007	0.00000E+000	1.32000E-001	3.38422E-004	7	..........a	-327.62
	5917	118.36	1.34371E-001	1.10996E-007	0.00000E+000	1.34000E-001	3.44255E-004	7	..........a	-327.62
	5918	118.38	1.36338E-001	6.45816E-008	0.00000E+000	1.36000E-001	3.47589E-004	7	..........a	-327.62
	5919	118.4	1.38353E-001	8.53594E-008	0.00000E+000	1.38000E-001	3.41755E-004	7	..........a	-327.62
	5920	118.42	1.40314E-001	1.25290E-007	0.00000E+000	1.40000E-001	3.45089E-004	7	..........a	-327.62
	5921	118.44	1.42404E-001	1.01203E-007	0.00000E+000	1.42000E-001	3.40922E-004	7	..........a	-327.62
	5922	118.46	1.44275E-001	1.00178E-007	0.00000E+000	1.44000E-001	3.40089E-004	7	..........a	-327.62
	5923	118.48	1.46380E-001	9.02267E-008	0.00000E+000	1.46000E-001	3.41755E-004	7	..........a	-327.62
	5924	118.5	1.48430E-001	1.00303E-007	0.00000E+000	1.48000E-001	3.45089E-004	7	..........a	-327.62
	5925	118.52	1.50376E-001	1.40650E-007	0.00000E+000	1.50000E-001	3.50089E-004	7	..........a	-327.62
	5926	118.54	1.52318E-001	1.23206E-007	0.00000E+000	1.52000E-001	3.40922E-004	7	..........a	-327.62
	5927	118.56	1.54364E-001	1.14097E-007	0.00000E+000	1.54000E-001	3.38422E-004	7	..........a	-327.62
	5928	118.58	1.56387E-001	7.23910E-008	0.00000E+000	1.56000E-001	3.45089E-004	7	..........a	-327.62
	5929	118.6	1.58423E-001	8.71846E-008	0.00000E+000	1.58000E-001	3.34255E-004	7	..........a	-327.62
	5930	118.62	1.60315E-001	1.21756E-007	0.00000E+000	1.60000E-001	3.43422E-004	7	..........a	-327.62
	5931	118.64	1.62361E-001	1.06421E-007	0.00000E+000	1.62000E-001	3.46755E-004	7	..........a	-327.62
	5932	118.66	1.64298E-001	1.07904E-007	0.00000E+000	1.64000E-001	3.41755E-004	7	..........a	-327.62
	5933	118.68	1.66475E-001	8.43509E-008	0.00000E+000	1.66000E-001	3.41755E-004	7	..........a	-327.62
	5934	118.7	1.68316E-001	1.18806E-007	0.00000E+000	1.68000E-001	3.38422E-004	7	..........a	-327.62
	5935	118.72	1.70362E-001	1.39742E-007	0.00000E+000	1.70000E-001	3.42589E-004	7	..........a	-327.62
	5936	118.74	1.72378E-001	1.15172E-007	0.00000E+000	1.72000E-001	3.43422E-004	7	..........a	-327.62
	5937	118.76	1.74340E-001	1.04037E-007	0.00000E+000	1.74000E-001	3.41755E-004	7	..........a	-327.62
	5938	118.78	1.76344E-001	8.91516E-008	0.00000E+000	1.76000E-001	3.51755E-004	7	..........a	-327.62
	5939	118.8	1.78361E-001	6.43732E-008	0.00000E+000	1.78000E-001	3.41755E-004	7	..........a	-327.62
	5940	118.82	1.80362E-001	1.14155E-007	0.00000E+000	1.80000E-001	3.43422E-004	7	..........a	-327.62
	5941	118.84	1.82398E-001	1.54469E-007	0.00000E+000	1.82000E-001	3.56755E-004	7	..........a	-327.62
	5942	118.86	1.84294E-001	1.34474E-007	0.00000E+000	1.84000E-001	3.37589E-004	7	..........a	-327.62
	5943	118.88	1.86335E-001	8.72846E-008	0.00000E+000	1.86000E-001	3.41755E-004	7	..........a	-327.62
	5944	118.9	1.88298E-001	8.58178E-008	0.00000E+000	1.88000E-001	3.40922E-004	7	..........a	-327.62
	5945	118.92	1.90318E-001	1.28057E-007	0.00000E+000	1.90000E-001	3.40922E-004	7	..........a	-327.62
	5946	118.94	1.92374E-001	1.13655E-007	0.00000E+000	1.92000E-001	3.42589E-004	7	..........a	-327.62
	5947	118.96	1.94393E-001	1.04479E-007	0.00000E+000	1.94000E-001	3.43422E-004	7	..........a	-327.62
	5948	118.98	1.96372E-001	7.78584E-008	0.00000E+000	1.96000E-001	3.45089E-004	7	..........a	-327.62
	5949	119	1.98263E-001	1.10863E-007	0.00000E+000	1.98000E-001	3.50089E-004	7	..........a	-327.62
	5950	119.02	2.00308E-001	1.33699E-007	0.00000E+000	2.00000E-001	3.40922E-004	7	..........a	-327.62
	5951	119.04	2.02350E-001	1.34833E-007	0.00000E+000	2.02000E-001	3.43422E-004	7	..........a	-327.62
	5952	119.06	2.04345E-001	1.36025E-007	0.00000E+000	2.04000E-001	3.48422E-004	7	..........a	-327.62
	5953	119.08	2.06387E-001	1.02620E-007	0.00000E+000	2.06000E-001	3.39255E-004	7	..........a	-327.62
	5954	119.1	2.08326E-001	7.37328E-008	0.00000E+000	2.08000E-001	3.40089E-004	7	..........a	-327.62
	5955	119.12	2.10343E-001	1.16405E-007	0.00000E+000	2.10000E-001	3.39255E-004	7	..........a	-327.62
	5956	119.14	2.12334E-001	1.44876E-007	0.00000E+000	2.12000E-001	3.43422E-004	7	..........a	-327.62
	5957	119.16	2.14343E-001	1.10855E-007	0.00000E+000	2.14000E-001	3.41755E-004	7	..........a	-327.62
	5958	119.18	2.16280E-001	9.61942E-008	0.00000E+000	2.16000E-001	3.41755E-004	7	..........a	-327.62
	5959	119.2	2.18361E-001	1.11096E-007	0.00000E+000	2.18000E-001	3.42589E-004	7	..........a	-327.62
	5960	119.22	2.20415E-001	1.46084E-007	0.00000E+000	2.20000E-001	3.55089E-004	7	..........a	-327.62
	5961	119.24	2.22334E-001	1.60070E-007	0.00000E+000	2.22000E-001	3.51755E-004	7	..........a	-327.62
	5962	119.26	2.24355E-001	1.15955E-007	0.00000E+000	2.24000E-001	3.40922E-004	7	..........a	-327.62
	5963	119.28	2.26367E-001	9.91279E-008	0.00000E+000	2.26000E-001	3.54255E-004	7	..........a	-327.62
	5964	119.3	2.28383E-001	6.69402E-008	0.00000E+000	2.28000E-001	3.50089E-004	7	..........a	-327.62
	5965	119.32	2.30310E-001	1.20422E-007	0.00000E+000	2.30000E-001	3.42589E-004	7	..........a	-327.62
	5966	119.34	2.32317E-001	1.33041E-007	0.00000E+000	2.32000E-001	3.37589E-004	7	..........a	-327.62
	5967	119.36	2.34336E-001	1.39692E-007	0.00000E+000	2.34000E-001	3.54255E-004	7	..........a	-327.62
	5968	119.38	2.36324E-001	1.25515E-007	0.00000E+000	2.36000E-001	3.44255E-004	7	..........a	-327.62
	5969	119.4	2.38342E-001	1.20648E-007	0.00000E+000	2.38000E-001	3.44255E-004	7	..........a	-327.62
	5970	119.42	2.40302E-001	1.31241E-007	0.00000E+000	2.40000E-001	3.50922E-004	7	..........a	-327.62
	5971	119.44	2.42323E-001	1.28499E-007	0.00000E+000	2.42000E-001	3.41755E-004	7	..........a	-327.62
	5972	119.46	2.44318E-001	1.30991E-007	0.00000E+000	2.44000E-001	3.38422E-004	7	..........a	-327.62
	5973	119.48	2.46392E-001	9.29187E-008	0.00000E+000	2.46000E-001	3.38422E-004	7	..........a	-327.62
	5974	119.5	2.48288E-001	1.11980E-007	0.00000E+000	2.48000E-001	3.47589E-004	7	..........a	-327.62
	5975	119.52	2.50353E-001	1.34941E-007	0.00000E+000	2.50000E-001	3.46755E-004	7	..........a	-327.62
	5976	119.54	2.52390E-001	1.50727E-007	0.00000E+000	2.52000E-001	3.42589E-004	7	..........a	-327.62
	5977	119.56	2.54378E-001	1.42092E-007	0.00000E+000	2.54000E-001	3.41755E-004	7	..........a	-327.62
	5978	119.58	2.56294E-001	1.04729E-007	0.00000E+000	2.56000E-001	3.45089E-004	7	..........a	-327.62
	5979	119.6	2.58355E-001	1.20981E-007	0.00000E+000	2.58000E-001	3.38422E-004	7	..........a	-327.62
	5980	119.62	2.60294E-001	1.31216E-007	0.00000E+000	2.60000E-001	3.46755E-004	7	..........a	-327.62
	5981	119.64	2.62303E-001	1.25957E-007	0.00000E+000	2.62000E-001	3.40089E-004	7	..........a	-327.62
	5982	119.66	2.64284E-001	1.31124E-007	0.00000E+000	2.64000E-001	3.41755E-004	7	..........a	-327.62
	5983	119.68	2.66305E-001	1.13813E-007	0.00000E+000	2.66000E-001	3.40089E-004	7	..........a	-327.62
	5984	119.7	2.68273E-001	1.13247E-007	0.00000E+000	2.68000E-001	3.38422E-004	7	..........a	-327.62
	5985	119.72	2.70406E-001	1.55677E-007	0.00000E+000	2.70000E-001	3.48422E-004	7	..........a	-327.62
	5986	119.74	2.72301E-001	1.72396E-007	0.00000E+000	2.72000E-001	3.60922E-004	7	..........a	-327.62
	5987	119.76	2.74356E-001	1.32799E-007	0.00000E+000	2.74000E-001	3.33422E-004	7	..........a	-327.62
	5988	119.78	2.76364E-001	9.70360E-008	0.00000E+000	2.76000E-001	3.38422E-004	7	..........a	-327.62
	5989	119.8	2.78259E-001	1.15697E-007	0.00000E+000	2.78000E-001	3.41755E-004	7	..........a	-327.62
	5990	119.82	2.80297E-001	1.44734E-007	0.00000E+000	2.80000E-001	3.44255E-004	7	..........a	-327.62
	5991	119.84	2.82349E-001	1.27307E-007	0.00000E+000	2.82000E-001	3.37589E-004	7	..........a	-327.62
	5992	119.86	2.84332E-001	1.30099E-007	0.00000E+000	2.84000E-001	3.45089E-004	7	..........a	-327.62
	5993	119.88	2.86377E-001	9.94030E-008	0.00000E+000	2.86000E-001	3.42589E-004	7	..........a	-327.62
	5994	119.9	2.88284E-001	1.11555E-007	0.00000E+000	2.88000E-001	3.45089E-004	7	..........a	-327.62
	5995	119.92	2.90318E-001	1.58161E-007	0.00000E+000	2.90000E-001	3.38422E-004	7	..........a	-327.62
	5996	119.94	2.92258E-001	1.39400E-007	0.00000E+000	2.92000E-001	3.42589E-004	7	..........a	-327.62
	5997	119.96	2.94295E-001	1.26382E-007	0.00000E+000	2.94000E-001	3.33422E-004	7	..........a	-327.62
	5998	119.98	2.96315E-001	1.03729E-007	0.00000E+000	2.96000E-001	3.51755E-004	7	..........a	-327.62
	5999	120	2.98343E-001	1.21389E-007	0.00000E+000	2.98000E-001	3.42589E-004	7	..........a	-327.62
	6000	120.02	3.00333E-001	1.47535E-007	0.00000E+000	3.00000E-001	3.47589E-004	7	..........a	-327.62